Folder: cvxbaatar.github.io

Note: example1discussion.txt
Анхны өгөгдөл:
Зурагт 2019 оны наймдугаар сард Грек улсад амралтаар ирсэн жуулчдын чөлөөт цагаа зарцуулсан
үйл ажиллагаануудын хугацааг өдөрт ноогдох дундаж хугацаагаар харуулжээ.

Загвар:
Багана диаграммаар 2019 оны наймдугаар сард Грек улсад амралтаар ирсэн 4 өөр улсын жуулчдын чөлөөт цагаа зарцуулсан үйл ажиллагаануудын хугацааг харьцуулан харуулжээ. Судалгаанд хамрагдсан үйл ажиллагаанууд эрэг дээр очих, ном унших, янз бүрийн газарт очих зэрэг байсан.

Ерөнхийд нь харвал ихэнх цагийг ном уншихад зарцуулж байсан бол зугаалахад бага цаг зарцуулсан байна. Хятад жуулчинд ном уншихад хамгийн урт буюу өдөрт найман цагийг дундажаар зарцуулж байсан бол Бразид жуулчид эрэг дээр өдөрт зургаан цагийг зарцуулсан эрэг дээр өнгөрүүлсэн хамгийн урт хугацаа байна.

Америк болон Турк жуулчид зугаалахад өдөрт гурван цагийг зарцуулжээ. Мөн ном уншихад өдөрт дөрвөн цагийг Турк, Бразил жуулчид ижилхэн зарцуулжээ. Хятадууд ном уншихад Бразил, Туркуудаас хоёр дахин их хугацааг зарцуулсан бол Америк болон Турк жуулчид Хятад жуулчдаас гурав дахин их хугацааг зугаалахад зарцуулсан байна.



Initial:
The bar chart shows the percentages of the Canadian workforce in five major industries in 1850 and 2020. Summarise the information by selecting and reporting the main features, and make comparisons where relevant.


Model answer:
The bar charts divide the Canadian workforce into five categories based on the type of industry they work in for the years 1850 and 2020.

The overall trend shown in the data is a steep rise in the proportion of employees engaged in the service industry, coupled with a decline in manufacturing. The most salient feature is that in 2020 81% of the workforce were involved in providing services, which contrasts sharply with the figure of 33% in 1850. In contrast, we observe a huge drop in the manufacturing industry from over a third in the mid nineteenth century to just 9% by the early twenty-first century.

Furthermore, the 170-year period saw a marked fall in the agriculture and fishing sectors, leaving food production with a tiny 1% of Canadian workers. Similarly, workers in energy and water companies decreased by two thirds. On the other hand, the construction industry experienced significant growth from 5% to 8% over the period.

In general, the job profile of the Canadian workforce changed radically between 1850 and 2020, with the increases coming in the construction and service industry but all other areas seeing a decline.

File: FeS2.txt
/////////////////////////////////////////////////////////////////////////////////
/// Profile Data Ascii Dump (XRD)                                             ///
/////////////////////////////////////////////////////////////////////////////////

  Group     : Standard
  Data      : 154_FeS
  File Name : 154_FeS.RAW

# Profile Datafile
          comment             = 154_FeS
          date & time         = 10-11-22 12:09:12

# Measurement Condition
    X-ray tube
          target              = Co
          voltage             = 40.0 (kV)
          current             = 30.0 (mA)
    Slits
          divergence slit     = 1.00000 (deg)
          scatter slit        = 1.00000 (deg)
          receiving slit      = 0.30000 (mm)
    Scanning
          drive axis          = Theta-2Theta
          scan range          =    5.000 -   80.000
          scan mode           = Continuous Scan
          scan speed          =   2.0000 (deg/min)
          sampling pitch      =   0.0200 (deg)
          preset time         =   0.60 (sec)

# Data      [ Total No. = 3751 ]
  <2Theta>   <   I   >
     5.0000       160
     5.2600       116
     5.5200       120
     5.7800        94
     6.0400       110
     6.3000       100
     6.5600        96
     6.8200        90
     7.0800        98
     7.3400        96
     7.6000        76
     7.8600        80
     8.1200        84
     8.3800       114
     8.6400        84
     8.9000        86
     9.1600        80
     9.4200        66
     9.6800        92
     9.9400        72
    10.2000        86
    10.4600        68
    10.7200        78
    10.9800        90
    11.2400        70
    11.5000        86
    11.7600       108
    12.0200        88
    12.2800        84
    12.5400        98
    12.8000        90
    13.0600        80
    13.3200        94
    13.5800        76
    13.8400        86
    14.1000        84
    14.3600       106
    14.6200        84
    14.8800        90
    15.1400        90
    15.4000        84
    15.6600        86
    15.9200        78
    16.1800        68
    16.4400        96
    16.7000        86
    16.9600        92
    17.2200        76
    17.4800       102
    17.7400        88
    18.0000       110
    18.2600        96
    18.5200        86
    18.7800        82
    19.0400       100
    19.3000        82
    19.5600       106
    19.8200        94
    20.0800        76
    20.3400        78
    20.6000       100
    20.8600        70
    21.1200        70
    21.3800        82
    21.6400        96
    21.9000       106
    22.1600        94
    22.4200        72
    22.6800        78
    22.9400        98
    23.2000        62
    23.4600       102
    23.7200        86
    23.9800        86
    24.2400        80
    24.5000        94
    24.7600        88
    25.0200        80
    25.2800        68
    25.5400        78
    25.8000        80
    26.0600        80
    26.3200        74
    26.5800        78
    26.8400        84
    27.1000        92
    27.3600        74
    27.6200        62
    27.8800        62
    28.1400        74
    28.4000        68
    28.6600        80
    28.9200        78
    29.1800        70
    29.4400        58
    29.7000        58
    29.9600        86
    30.2200        64
    30.4800        58
    30.7400        56
    31.0000       102
    31.2600        62
    31.5200        60
    31.7800        58
    32.0400        74
    32.3000        62
    32.5600        62
    32.8200        68
    33.0800        68
    33.3400       118
    33.6000        70
    33.8600        70
    34.1200        70
    34.3800        60
    34.6400        70
    34.9000        64
    35.1600        80
    35.4200        74
    35.6800        82
    35.9400        92
    36.2000        94
    36.4600        78
    36.7200        84
    36.9800        74
    37.2400        72
    37.5000        84
    37.7600        94
    38.0200        76
    38.2800        88
    38.5400       676
    38.8000       106
    39.0600        80
    39.3200        74
    39.5800        66
    39.8400        74
    40.1000        70
    40.3600        76
    40.6200        72
    40.8800        62
    41.1400        70
    41.4000        66
    41.6600        72
    41.9200        62
    42.1800        70
    42.4400        66
    42.7000        68
    42.9600        68
    43.2200       176
    43.4800       194
    43.7400        66
    44.0000        54
    44.2600        42
    44.5200        64
    44.7800        78
    45.0400        74
    45.3000        74
    45.5600        56
    45.8200        72
    46.0800        66
    46.3400        68
    46.6000        74
    46.8600        62
    47.1200        74
    47.3800        54
    47.6400       194
    47.9000       132
    48.1600        54
    48.4200        52
    48.6800        58
    48.9400        54
    49.2000        60
    49.4600        58
    49.7200        58
    49.9800        58
    50.2400        60
    50.5000        70
    50.7600        52
    51.0200        50
    51.2800        68
    51.5400        56
    51.8000        42
    52.0600        60
    52.3200        54
    52.5800        50
    52.8400        50
    53.1000        54
    53.3600        58
    53.6200        40
    53.8800        54
    54.1400        52
    54.4000        56
    54.6600        52
    54.9200        54
    55.1800        52
    55.4400        70
    55.7000       302
    55.9600        72
    56.2200        46
    56.4800        52
    56.7400        54
    57.0000        66
    57.2600        50
    57.5200        60
    57.7800        50
    58.0400        42
    58.3000        34
    58.5600        56
    58.8200        58
    59.0800        40
    59.3400        58
    59.6000        42
    59.8600        52
    60.1200        56
    60.3800        44
    60.6400        48
    60.9000        66
    61.1600        46
    61.4200        48
    61.6800        52
    61.9400        54
    62.2000        52
    62.4600        48
    62.7200        46
    62.9800        46
    63.2400        60
    63.5000        48
    63.7600        38
    64.0200        54
    64.2800        52
    64.5400        42
    64.8000        46
    65.0600        50
    65.3200        58
    65.5800        56
    65.8400        46
    66.1000        60
    66.3600       510
    66.6200       232
    66.8800        54
    67.1400        48
    67.4000        52
    67.6600        62
    67.9200        54
    68.1800        46
    68.4400        50
    68.7000        64
    68.9600        42
    69.2200        52
    69.4800        38
    69.7400       132
    70.0000        68
    70.2600        62
    70.5200        56
    70.7800        48
    71.0400        48
    71.3000        62
    71.5600        38
    71.8200        50
    72.0800        50
    72.3400        36
    72.6000        40
    72.8600        64
    73.1200       128
    73.3800        66
    73.6400        52
    73.9000        50
    74.1600        54
    74.4200        38
    74.6800        54
    74.9400        40
    75.2000        48
    75.4600        46
    75.7200        38
    75.9800        58
    76.2400       148
    76.5000       162
    76.7600        54
    77.0200        46
    77.2800        50
    77.5400        50
    77.8000        54
    78.0600        46
    78.3200        48
    78.5800        38
    78.8400        54
    79.1000        42
    79.3600        44
    79.6200        38
    79.8800        38
    80.0000        48